#Eichung des Elektromagneten:
#I/A   B/mT
1 70
1.5 95
2 130
2.5 151
3 171
3.5 202
4 230
4.5 261
5 300
5.5 333
6 365
6.5 397
7 430
7.5 458
8 490
8.5 522
9 562
9.5 595
10  617
10.5  652
11  695
11.5  730
12  768
12.5  790
13  828
13.5  855
14  883
14.5  912
15  939
15.5  969
16  1001
